BlockName,ListNumber,TrialNumber,PrimeCaption,TargetCaption,Condition,ISIDuration,ITIDuration,PrimePortCode,TargetPortCode,Response,RT,Accuracy
Main,1,1,BEFORE,AFTER,Related,970,1523,111,211,201,540.8,rm_hit
Main,1,2,EVEN,CANDLE,Unrelated,1078,1473,121,221,201,637.2,rm_hit
Main,1,3,FOLLOW,PUSH,Unrelated,1057,1589,121,221,201,736.1,rm_hit
Main,1,4,AUNT,UNCLE,Related,913,1553,111,211,201,516.5,rm_hit
Main,1,5,QUACK,DUCK,Related,1033,1491,111,211,201,710.2,rm_hit
Main,1,6,ROAR,SISTER,Unrelated,1036,1550,121,221,201,561.8,rm_hit
Main,1,7,SPLASH,HER,Unrelated,1060,1519,121,221,201,810.1,rm_hit
Main,1,8,DILL,PICKLE,Related,972,1529,111,211,201,735.8,rm_hit
Main,1,9,PAIL,DOWN,Unrelated,1021,1588,121,221,201,570.7,rm_hit
Main,1,10,SOBER,EGG,Unrelated,923,1424,121,221,201,495,rm_hit
Main,1,11,TUNA,FISH,Related,914,1464,111,211,201,842,rm_hit
Main,1,12,BOUQUET,FLOWERS,Related,1011,1429,111,211,201,655.7,rm_hit
Main,1,13,DILEMMA,THIRST,Unrelated,951,1501,121,221,201,609.3,rm_hit
Main,1,14,SKETCH,DRAW,Related,920,1509,111,211,202,737.4,rm_incorrect
Main,1,15,BREEZE,SLEEP,Unrelated,1051,1568,121,221,201,539.9,rm_hit
Main,1,16,DESPISE,HATE,Related,907,1448,111,211,201,681.4,rm_hit
Main,1,17,TABLE,CHAIR,Related,1003,1573,111,211,202,696.4,rm_incorrect
Main,1,18,DUSK,HEADACHE,Unrelated,982,1530,121,221,201,514.7,rm_hit
Main,1,19,TROUSERS,PANTS,Related,996,1463,111,211,201,534.4,rm_hit
Main,1,20,DIAMOND,RIGHT,Unrelated,987,1428,121,221,201,709.4,rm_hit
Main,1,21,LOW,HIGH,Related,1060,1559,111,211,201,572.6,rm_hit
Main,1,22,PERSPIRE,SWEAT,Related,971,1422,111,211,201,640.3,rm_hit
Main,1,23,JIGSAW,PUZZLE,Related,948,1561,111,211,201,433.9,rm_hit
Main,1,24,RAYS,BUTTER,Unrelated,1009,1510,121,221,201,483.6,rm_hit
Main,1,25,PHYSICIAN,DOCTOR,Related,974,1557,111,211,201,464.5,rm_hit
Main,1,26,CLIMBER,CLOTHES,Unrelated,968,1590,121,221,201,660.2,rm_hit
Main,1,27,QUIZ,TEST,Related,987,1405,111,211,201,405.9,rm_hit
Main,1,28,FLUNK,DAD,Unrelated,900,1433,121,221,201,434.8,rm_hit
Main,1,29,EXHAUSTED,TIRED,Related,1099,1431,111,211,201,518.4,rm_hit
Main,1,30,CHAPTER,LIE,Unrelated,922,1432,121,221,201,473.4,rm_hit
Main,1,31,DENIM,JEANS,Related,930,1501,111,211,201,507.6,rm_hit
Main,1,32,PEPPERONI,PIZZA,Related,1059,1422,111,211,201,526,rm_hit
Main,1,33,NOVEL,NAIL,Unrelated,1035,1543,121,221,201,564.3,rm_hit
Main,1,34,OAK,TREE,Related,902,1419,111,211,201,395.2,rm_hit
Main,1,35,DEPART,CRACKER,Unrelated,1082,1597,121,221,201,656.2,rm_hit
Main,1,36,SLIP,NO,Unrelated,1025,1441,121,221,201,455.8,rm_hit
Main,1,37,WEARY,STAY,Unrelated,1014,1582,121,221,201,622.2,rm_hit
Main,1,38,BAIT,LATE,Unrelated,1071,1542,121,221,201,509.1,rm_hit
Main,1,39,LARGE,BOOK,Unrelated,1013,1412,121,221,201,463.5,rm_hit
Main,1,40,CLEVER,EAR,Unrelated,964,1466,121,221,201,521.1,rm_hit
Main,1,41,HALT,STOP,Related,1098,1408,111,211,201,664.3,rm_hit
Main,1,42,TOSS,UNDERSTAND,Unrelated,996,1472,121,221,201,472.5,rm_hit
Main,1,43,WRENCH,BABY,Unrelated,909,1473,121,221,201,609.5,rm_hit
Main,1,44,HE,SHE,Related,1026,1443,111,211,202,789.8,rm_incorrect
Main,1,45,SCENT,GROOM,Unrelated,1047,1455,121,221,201,554.8,rm_hit
Main,1,46,COB,CORN,Related,974,1410,111,211,202,442.4,rm_incorrect
Main,1,47,OFF,ON,Related,1045,1465,111,211,201,552.6,rm_hit
Main,1,48,BRAWL,FIGHT,Related,972,1488,111,211,201,624.3,rm_hit
Main,1,49,TOAD,FROG,Related,969,1478,111,211,201,487.2,rm_hit
Main,1,50,JOG,RUN,Related,903,1484,111,211,201,416.9,rm_hit
Main,1,51,STONE,WIFE,Unrelated,923,1564,121,221,201,497.1,rm_hit
Main,1,52,CHEDDAR,CHEESE,Related,983,1501,111,211,201,348.1,rm_hit
Main,1,53,CUP,OUT,Unrelated,933,1418,121,221,201,563.7,rm_hit
Main,1,54,BEGINNING,END,Related,905,1418,111,211,202,456,rm_incorrect
Main,1,55,MEN,MONEY,Unrelated,975,1415,121,221,201,961,rm_hit
Main,1,56,KITTEN,CAT,Related,980,1546,111,211,202,569.9,rm_incorrect
Main,1,57,PLANET,MOVIE,Unrelated,922,1570,121,221,202,856.1,rm_incorrect
Main,1,58,HILARIOUS,FUNNY,Related,905,1529,111,211,201,558.4,rm_hit
Main,1,59,RODENT,BONE,Unrelated,1098,1469,121,221,201,438.1,rm_hit
Main,1,60,CONSTRUCT,DOLPHIN,Unrelated,930,1510,121,221,201,607,rm_hit
Main,2,61,WICK,CANDLE,Related,926,1520,112,212,201,592.2,rm_hit
Main,2,62,PROFIT,UNCLE,Unrelated,901,1552,122,222,201,568.6,rm_hit
Main,2,63,MARROW,BONE,Related,995,1520,112,212,201,499.5,rm_hit
Main,2,64,BRIDE,GROOM,Related,1043,1480,112,212,201,341.8,rm_hit
Main,2,65,BROTHER,SISTER,Related,1054,1560,112,212,201,385.5,rm_hit
Main,2,66,PARROT,DRAW,Unrelated,1003,1564,122,222,201,571.8,rm_hit
Main,2,67,ONCE,FISH,Unrelated,1002,1458,122,222,201,670.1,rm_hit
Main,2,68,FLIPPER,DOLPHIN,Related,1029,1565,112,212,201,395.2,rm_hit
Main,2,69,ANATOMY,HATE,Unrelated,953,1586,122,222,201,487.4,rm_hit
Main,2,70,LIBRARY,BOOK,Related,937,1430,112,212,201,515.7,rm_hit
Main,2,71,UNSOLVED,AFTER,Unrelated,907,1600,122,222,201,422.6,rm_hit
Main,2,72,DESIRE,DOCTOR,Unrelated,1093,1516,122,222,201,587.7,rm_hit
Main,2,73,PRIM,HIGH,Unrelated,909,1541,122,222,201,555.3,rm_hit
Main,2,74,SWIFT,TEST,Unrelated,1071,1600,122,222,201,723.7,rm_hit
Main,2,75,EMPLOYMENT,CAT,Unrelated,966,1540,122,222,201,462,rm_hit
Main,2,76,MOM,DAD,Related,1011,1478,112,212,201,824.2,rm_hit
Main,2,77,WARDROBE,CLOTHES,Related,971,1534,112,212,201,543.2,rm_hit
Main,2,78,YES,NO,Related,904,1487,112,212,201,358.9,rm_hit
Main,2,79,SOCK,FLOWERS,Unrelated,1083,1583,122,222,201,441.2,rm_hit
Main,2,80,STING,SHE,Unrelated,1042,1505,122,222,201,520.8,rm_hit
Main,2,81,SHINGLE,CHAIR,Unrelated,1081,1554,122,222,201,410.3,rm_hit
Main,2,82,REMAIN,STAY,Related,978,1499,112,212,202,733.9,rm_incorrect
Main,2,83,QUENCH,THIRST,Related,1010,1560,112,212,201,330.2,rm_hit
Main,2,84,ESCARGOT,TIRED,Unrelated,1097,1567,122,222,202,584.6,rm_incorrect
Main,2,85,FROSTING,PIZZA,Unrelated,1018,1559,122,222,201,618.2,rm_hit
Main,2,86,LOBE,EAR,Related,1091,1494,112,212,201,528.6,rm_hit
Main,2,87,MARGARINE,BUTTER,Related,1039,1449,112,212,201,484.2,rm_hit
Main,2,88,COMPREHEND,UNDERSTAND,Related,1063,1444,112,212,201,392.6,rm_hit
Main,2,89,UP,DOWN,Related,1083,1514,112,212,201,364.2,rm_hit
Main,2,90,TARDY,LATE,Related,1090,1559,112,212,201,364.6,rm_hit
Main,2,91,SHOVE,PUSH,Related,995,1474,112,212,201,351,rm_hit
Main,2,92,GLANCE,END,Unrelated,1040,1556,122,222,201,522.5,rm_hit
Main,2,93,QUIVER,DUCK,Unrelated,1083,1481,122,222,201,401.6,rm_hit
Main,2,94,SOBER,FUNNY,Unrelated,905,1501,122,222,201,435.2,rm_hit
Main,2,95,HAPPY,CORN,Unrelated,1089,1520,122,222,201,436.8,rm_hit
Main,2,96,HAMMER,NAIL,Related,1047,1491,112,212,202,583.1,rm_incorrect
Main,2,97,FIB,LIE,Related,1001,1406,112,212,201,316.2,rm_hit
Main,2,98,HONK,PUZZLE,Unrelated,1027,1475,122,222,201,403.1,rm_hit
Main,2,99,DIME,PICKLE,Unrelated,998,1433,122,222,201,392.8,rm_hit
Main,2,100,CRIB,BABY,Related,998,1524,112,212,201,400.3,rm_hit
Main,2,101,IMMEDIATE,FIGHT,Unrelated,1053,1463,122,222,201,472,rm_hit
Main,2,102,NAP,SLEEP,Related,1009,1515,112,212,201,589.6,rm_hit
Main,2,103,YOLK,EGG,Related,968,1555,112,212,201,379.3,rm_hit
Main,2,104,PEANUT,RUN,Unrelated,970,1529,122,222,201,422.9,rm_hit
Main,2,105,LEFT,RIGHT,Related,910,1465,112,212,201,310,rm_hit
Main,2,106,CASH,MONEY,Related,955,1571,112,212,202,486.1,rm_incorrect
Main,2,107,CRACKLE,TREE,Unrelated,976,1557,122,222,201,553.2,rm_hit
Main,2,108,HINGE,CHEESE,Unrelated,1008,1423,122,222,201,522.8,rm_hit
Main,2,109,DAGGER,JEANS,Unrelated,1084,1563,122,222,202,407.2,rm_incorrect
Main,2,110,SALTINE,CRACKER,Related,1082,1475,112,212,201,294.1,rm_hit
Main,2,111,MIGRAINE,HEADACHE,Related,1011,1550,112,212,201,547.2,rm_hit
Main,2,112,CROCODILE,ON,Unrelated,1012,1529,122,222,201,645.4,rm_hit
Main,2,113,BOX,PANTS,Unrelated,914,1558,122,222,201,628.5,rm_hit
Main,2,114,BROOM,SWEAT,Unrelated,1068,1574,122,222,201,540.2,rm_hit
Main,2,115,CINEMA,MOVIE,Related,979,1443,112,212,201,374.4,rm_hit
Main,2,116,WALLET,STOP,Unrelated,965,1580,122,222,201,702.7,rm_hit
Main,2,117,HIM,HER,Related,1028,1581,112,212,201,383.1,rm_hit
Main,2,118,IN,OUT,Related,1069,1428,112,212,201,374.1,rm_hit
Main,2,119,HUSBAND,WIFE,Related,925,1524,112,212,201,336.3,rm_hit
Main,2,120,BEETLE,FROG,Unrelated,1083,1454,122,222,201,536.7,rm_hit
