BlockName,ListNumber,TrialNumber,PrimeCaption,TargetCaption,Condition,ISIDuration,ITIDuration,PrimePortCode,TargetPortCode,Response,RT,Accuracy
Main,1,1,STONE,WIFE,Unrelated,974,1512,121,221,201,825.1,rm_hit
Main,1,2,CHEDDAR,CHEESE,Related,931,1550,111,211,NaN,-60562.6,rm_miss
Main,1,3,TROUSERS,PANTS,Related,1075,1444,111,211,201,1551.6,rm_hit
Main,1,4,CLEVER,EAR,Unrelated,951,1405,121,221,201,760.6,rm_hit
Main,1,5,DENIM,JEANS,Related,1063,1416,111,211,201,758.2,rm_hit
Main,1,6,DILEMMA,THIRST,Unrelated,1016,1479,121,221,201,773.8,rm_hit
Main,1,7,ROAR,SISTER,Unrelated,972,1434,121,221,201,788.8,rm_hit
Main,1,8,CHAPTER,LIE,Unrelated,905,1422,121,221,201,1024.4,rm_hit
Main,1,9,NOVEL,NAIL,Unrelated,930,1544,121,221,201,994.7,rm_hit
Main,1,10,TOAD,FROG,Related,1010,1489,111,211,201,773.1,rm_hit
Main,1,11,OFF,ON,Related,1055,1456,111,211,201,623.9,rm_hit
Main,1,12,CLIMBER,CLOTHES,Unrelated,986,1538,121,221,202,1159,rm_incorrect
Main,1,13,WEARY,STAY,Unrelated,1076,1486,121,221,201,1007.3,rm_hit
Main,1,14,PEPPERONI,PIZZA,Related,1012,1567,111,211,201,652.2,rm_hit
Main,1,15,QUACK,DUCK,Related,969,1563,111,211,201,592,rm_hit
Main,1,16,WRENCH,BABY,Unrelated,994,1518,121,221,201,858.2,rm_hit
Main,1,17,SKETCH,DRAW,Related,1035,1452,111,211,201,1389.2,rm_hit
Main,1,18,TUNA,FISH,Related,997,1543,111,211,201,588.2,rm_hit
Main,1,19,FOLLOW,PUSH,Unrelated,1032,1427,121,221,201,989.8,rm_hit
Main,1,20,JIGSAW,PUZZLE,Related,1034,1480,111,211,201,628.2,rm_hit
Main,1,21,RODENT,BONE,Unrelated,1074,1576,121,221,201,884.6,rm_hit
Main,1,22,BEGINNING,END,Related,974,1462,111,211,201,599,rm_hit
Main,1,23,COB,CORN,Related,1014,1436,111,211,201,892.6,rm_hit
Main,1,24,SPLASH,HER,Unrelated,1094,1427,121,221,201,880.2,rm_hit
Main,1,25,OAK,TREE,Related,1055,1574,111,211,201,613.9,rm_hit
Main,1,26,TABLE,CHAIR,Related,1058,1567,111,211,201,660.9,rm_hit
Main,1,27,KITTEN,CAT,Related,1041,1471,111,211,201,613.3,rm_hit
Main,1,28,HE,SHE,Related,1063,1519,111,211,201,616.9,rm_hit
Main,1,29,BEFORE,AFTER,Related,1060,1578,111,211,201,538.5,rm_hit
Main,1,30,MEN,MONEY,Unrelated,959,1421,121,221,201,773.5,rm_hit
Main,1,31,CONSTRUCT,DOLPHIN,Unrelated,918,1580,121,221,201,913.1,rm_hit
Main,1,32,EXHAUSTED,TIRED,Related,952,1563,111,211,201,748.7,rm_hit
Main,1,33,EVEN,CANDLE,Unrelated,903,1570,121,221,201,835.1,rm_hit
Main,1,34,SCENT,GROOM,Unrelated,1079,1444,121,221,201,930.1,rm_hit
Main,1,35,RAYS,BUTTER,Unrelated,1031,1403,121,221,201,695.7,rm_hit
Main,1,36,DIAMOND,RIGHT,Unrelated,1008,1513,121,221,201,1032,rm_hit
Main,1,37,BOUQUET,FLOWERS,Related,1047,1587,111,211,201,842.3,rm_hit
Main,1,38,HALT,STOP,Related,1081,1559,111,211,201,848.6,rm_hit
Main,1,39,LOW,HIGH,Related,1050,1588,111,211,201,881,rm_hit
Main,1,40,TOSS,UNDERSTAND,Unrelated,976,1405,121,221,201,851.3,rm_hit
Main,1,41,DESPISE,HATE,Related,988,1435,111,211,201,638.5,rm_hit
Main,1,42,QUIZ,TEST,Related,926,1428,111,211,201,752.7,rm_hit
Main,1,43,LARGE,BOOK,Unrelated,1046,1407,121,221,201,966.3,rm_hit
Main,1,44,FLUNK,DAD,Unrelated,1041,1467,121,221,201,756.7,rm_hit
Main,1,45,PHYSICIAN,DOCTOR,Related,923,1413,111,211,201,845.6,rm_hit
Main,1,46,PLANET,MOVIE,Unrelated,1082,1516,121,221,201,818.6,rm_hit
Main,1,47,SOBER,EGG,Unrelated,1050,1563,121,221,201,852.9,rm_hit
Main,1,48,PAIL,DOWN,Unrelated,942,1503,121,221,201,1041.3,rm_hit
Main,1,49,BRAWL,FIGHT,Related,920,1455,111,211,201,729.5,rm_hit
Main,1,50,JOG,RUN,Related,976,1578,111,211,201,769.1,rm_hit
Main,1,51,AUNT,UNCLE,Related,955,1465,111,211,201,740.7,rm_hit
Main,1,52,DILL,PICKLE,Related,1022,1573,111,211,201,746.5,rm_hit
Main,1,53,SLIP,NO,Unrelated,1023,1510,121,221,201,922.7,rm_hit
Main,1,54,CUP,OUT,Unrelated,945,1541,121,221,201,849.1,rm_hit
Main,1,55,DEPART,CRACKER,Unrelated,932,1518,121,221,201,742.7,rm_hit
Main,1,56,BREEZE,SLEEP,Unrelated,1085,1515,121,221,201,999.6,rm_hit
Main,1,57,HILARIOUS,FUNNY,Related,920,1501,111,211,201,807.3,rm_hit
Main,1,58,DUSK,HEADACHE,Unrelated,903,1512,121,221,201,752.2,rm_hit
Main,1,59,PERSPIRE,SWEAT,Related,1056,1555,111,211,202,1097.8,rm_incorrect
Main,1,60,BAIT,LATE,Unrelated,922,1538,121,221,201,975.5,rm_hit
Main,2,61,REMAIN,STAY,Related,1092,1592,112,212,201,688.4,rm_hit
Main,2,62,QUIVER,DUCK,Unrelated,999,1504,122,222,201,777.4,rm_hit
Main,2,63,SWIFT,TEST,Unrelated,1032,1565,122,222,201,765,rm_hit
Main,2,64,BROOM,SWEAT,Unrelated,920,1527,122,222,201,714.7,rm_hit
Main,2,65,HAPPY,CORN,Unrelated,979,1489,122,222,201,743.1,rm_hit
Main,2,66,UNSOLVED,AFTER,Unrelated,1035,1493,122,222,201,746.6,rm_hit
Main,2,67,UP,DOWN,Related,1026,1429,112,212,201,646.3,rm_hit
Main,2,68,DIME,PICKLE,Unrelated,1074,1476,122,222,201,698.6,rm_hit
Main,2,69,COMPREHEND,UNDERSTAND,Related,1096,1583,112,212,201,620.3,rm_hit
Main,2,70,IN,OUT,Related,995,1565,112,212,201,622,rm_hit
Main,2,71,ONCE,FISH,Unrelated,952,1544,122,222,201,866.2,rm_hit
Main,2,72,MIGRAINE,HEADACHE,Related,1064,1578,112,212,201,706.6,rm_hit
Main,2,73,FLIPPER,DOLPHIN,Related,1022,1556,112,212,201,811.6,rm_hit
Main,2,74,MARGARINE,BUTTER,Related,1100,1589,112,212,201,665.9,rm_hit
Main,2,75,NAP,SLEEP,Related,959,1452,112,212,201,916.3,rm_hit
Main,2,76,TARDY,LATE,Related,1064,1405,112,212,201,536.6,rm_hit
Main,2,77,CINEMA,MOVIE,Related,979,1582,112,212,201,857.5,rm_hit
Main,2,78,IMMEDIATE,FIGHT,Unrelated,1044,1521,122,222,201,689.3,rm_hit
Main,2,79,BOX,PANTS,Unrelated,1020,1562,122,222,201,869,rm_hit
Main,2,80,ESCARGOT,TIRED,Unrelated,1019,1433,122,222,201,638.6,rm_hit
Main,2,81,SOCK,FLOWERS,Unrelated,961,1486,122,222,201,703.5,rm_hit
Main,2,82,EMPLOYMENT,CAT,Unrelated,1014,1490,122,222,201,572.6,rm_hit
Main,2,83,DESIRE,DOCTOR,Unrelated,1085,1599,122,222,201,790.3,rm_hit
Main,2,84,PRIM,HIGH,Unrelated,1097,1540,122,222,201,691.2,rm_hit
Main,2,85,FIB,LIE,Related,960,1500,112,212,202,1047.6,rm_incorrect
Main,2,86,CASH,MONEY,Related,926,1463,112,212,201,599.2,rm_hit
Main,2,87,WALLET,STOP,Unrelated,970,1491,122,222,201,886.7,rm_hit
Main,2,88,SHOVE,PUSH,Related,970,1566,112,212,201,709.1,rm_hit
Main,2,89,SALTINE,CRACKER,Related,972,1525,112,212,201,632.8,rm_hit
Main,2,90,LEFT,RIGHT,Related,978,1410,112,212,201,581,rm_hit
Main,2,91,DAGGER,JEANS,Unrelated,1075,1461,122,222,201,1018,rm_hit
Main,2,92,BEETLE,FROG,Unrelated,972,1564,122,222,202,937.6,rm_incorrect
Main,2,93,HAMMER,NAIL,Related,1080,1484,112,212,201,616.7,rm_hit
Main,2,94,YES,NO,Related,977,1574,112,212,201,575,rm_hit
Main,2,95,CRIB,BABY,Related,1085,1519,112,212,201,789.3,rm_hit
Main,2,96,MARROW,BONE,Related,973,1558,112,212,201,602.3,rm_hit
Main,2,97,MOM,DAD,Related,960,1569,112,212,201,549.9,rm_hit
Main,2,98,SOBER,FUNNY,Unrelated,1072,1469,122,222,201,1181.6,rm_hit
Main,2,99,BRIDE,GROOM,Related,909,1569,112,212,201,775.3,rm_hit
Main,2,100,QUENCH,THIRST,Related,1074,1590,112,212,201,574.2,rm_hit
Main,2,101,HONK,PUZZLE,Unrelated,1015,1528,122,222,201,722.2,rm_hit
Main,2,102,FROSTING,PIZZA,Unrelated,902,1546,122,222,201,649.9,rm_hit
Main,2,103,PARROT,DRAW,Unrelated,949,1437,122,222,201,766.8,rm_hit
Main,2,104,PROFIT,UNCLE,Unrelated,926,1570,122,222,201,809.1,rm_hit
Main,2,105,WARDROBE,CLOTHES,Related,938,1506,112,212,201,662.1,rm_hit
Main,2,106,GLANCE,END,Unrelated,1016,1407,122,222,201,753.7,rm_hit
Main,2,107,LOBE,EAR,Related,1079,1413,112,212,201,534.6,rm_hit
Main,2,108,SHINGLE,CHAIR,Unrelated,1069,1478,122,222,201,956.3,rm_hit
Main,2,109,WICK,CANDLE,Related,951,1483,112,212,201,723.9,rm_hit
Main,2,110,ANATOMY,HATE,Unrelated,1093,1416,122,222,201,677.6,rm_hit
Main,2,111,HUSBAND,WIFE,Related,968,1514,112,212,201,871.2,rm_hit
Main,2,112,CROCODILE,ON,Unrelated,960,1598,122,222,201,740.8,rm_hit
Main,2,113,BROTHER,SISTER,Related,1041,1437,112,212,201,523.9,rm_hit
Main,2,114,STING,SHE,Unrelated,911,1549,122,222,201,1062.9,rm_hit
Main,2,115,PEANUT,RUN,Unrelated,1066,1576,122,222,201,671.2,rm_hit
Main,2,116,LIBRARY,BOOK,Related,950,1563,112,212,201,722.8,rm_hit
Main,2,117,YOLK,EGG,Related,924,1522,112,212,201,503.7,rm_hit
Main,2,118,HINGE,CHEESE,Unrelated,1017,1480,122,222,201,586.7,rm_hit
Main,2,119,HIM,HER,Related,988,1550,112,212,201,753.1,rm_hit
Main,2,120,CRACKLE,TREE,Unrelated,927,1460,122,222,201,718.7,rm_hit
