BlockName,ListNumber,TrialNumber,PrimeCaption,TargetCaption,Condition,ISIDuration,ITIDuration,PrimePortCode,TargetPortCode,Response,RT,Accuracy
Main,1,1,CONSTRUCT,DOLPHIN,Unrelated,945,1549,121,221,201,990.4,rm_hit
Main,1,2,PHYSICIAN,DOCTOR,Related,927,1535,111,211,201,684.1,rm_hit
Main,1,3,EVEN,CANDLE,Unrelated,978,1582,121,221,201,1016.4,rm_hit
Main,1,4,BAIT,LATE,Unrelated,1058,1412,121,221,201,1063.4,rm_hit
Main,1,5,DUSK,HEADACHE,Unrelated,936,1575,121,221,201,1274.3,rm_hit
Main,1,6,TUNA,FISH,Related,1084,1579,111,211,201,856.7,rm_hit
Main,1,7,DILL,PICKLE,Related,952,1404,111,211,201,1164.4,rm_hit
Main,1,8,SCENT,GROOM,Unrelated,1003,1592,121,221,201,989.3,rm_hit
Main,1,9,SOBER,EGG,Unrelated,917,1480,121,221,201,881.6,rm_hit
Main,1,10,PLANET,MOVIE,Unrelated,1010,1467,121,221,201,1078.6,rm_hit
Main,1,11,HILARIOUS,FUNNY,Related,937,1521,111,211,201,799.5,rm_hit
Main,1,12,WRENCH,BABY,Unrelated,902,1558,121,221,201,871.8,rm_hit
Main,1,13,FOLLOW,PUSH,Unrelated,999,1482,121,221,NaN,-95432.3,rm_miss
Main,1,14,BEGINNING,END,Related,1058,1421,111,211,NaN,-98381.2,rm_miss
Main,1,15,PERSPIRE,SWEAT,Related,976,1451,111,211,NaN,-101180.2,rm_miss
Main,1,16,HE,SHE,Related,946,1493,111,211,201,1295,rm_hit
Main,1,17,RAYS,BUTTER,Unrelated,1055,1490,121,221,201,1066,rm_hit
Main,1,18,MEN,MONEY,Unrelated,1048,1425,121,221,201,1069,rm_hit
Main,1,19,PAIL,DOWN,Unrelated,997,1478,121,221,201,1124.6,rm_hit
Main,1,20,LOW,HIGH,Related,1093,1570,111,211,201,686.2,rm_hit
Main,1,21,OAK,TREE,Related,927,1406,111,211,201,648.9,rm_hit
Main,1,22,CUP,OUT,Unrelated,965,1593,121,221,201,874.5,rm_hit
Main,1,23,DEPART,CRACKER,Unrelated,962,1501,121,221,201,756.8,rm_hit
Main,1,24,QUIZ,TEST,Related,1019,1410,111,211,201,665.2,rm_hit
Main,1,25,JIGSAW,PUZZLE,Related,938,1401,111,211,201,660.1,rm_hit
Main,1,26,CHAPTER,LIE,Unrelated,992,1486,121,221,201,733,rm_hit
Main,1,27,NOVEL,NAIL,Unrelated,984,1581,121,221,201,827.3,rm_hit
Main,1,28,TOSS,UNDERSTAND,Unrelated,1088,1557,121,221,201,1049.6,rm_hit
Main,1,29,BREEZE,SLEEP,Unrelated,921,1483,121,221,201,807.3,rm_hit
Main,1,30,PEPPERONI,PIZZA,Related,984,1586,111,211,201,853.6,rm_hit
Main,1,31,QUACK,DUCK,Related,933,1563,111,211,201,761.9,rm_hit
Main,1,32,SKETCH,DRAW,Related,956,1400,111,211,201,622.2,rm_hit
Main,1,33,OFF,ON,Related,1097,1421,111,211,201,755.2,rm_hit
Main,1,34,DESPISE,HATE,Related,912,1400,111,211,201,614.8,rm_hit
Main,1,35,TROUSERS,PANTS,Related,926,1428,111,211,201,642.3,rm_hit
Main,1,36,STONE,WIFE,Unrelated,1020,1594,121,221,201,809.3,rm_hit
Main,1,37,EXHAUSTED,TIRED,Related,1081,1523,111,211,201,543,rm_hit
Main,1,38,BOUQUET,FLOWERS,Related,1016,1449,111,211,201,514,rm_hit
Main,1,39,ROAR,SISTER,Unrelated,1040,1463,121,221,201,759,rm_hit
Main,1,40,AUNT,UNCLE,Related,1072,1568,111,211,201,786.6,rm_hit
Main,1,41,BEFORE,AFTER,Related,924,1574,111,211,201,535,rm_hit
Main,1,42,CLIMBER,CLOTHES,Unrelated,985,1456,121,221,201,713.4,rm_hit
Main,1,43,JOG,RUN,Related,906,1529,111,211,201,667.6,rm_hit
Main,1,44,RODENT,BONE,Unrelated,925,1590,121,221,201,722,rm_hit
Main,1,45,LARGE,BOOK,Unrelated,1046,1578,121,221,201,801,rm_hit
Main,1,46,TABLE,CHAIR,Related,1074,1408,111,211,201,823.3,rm_hit
Main,1,47,KITTEN,CAT,Related,978,1597,111,211,201,768.2,rm_hit
Main,1,48,FLUNK,DAD,Unrelated,910,1548,121,221,201,780.6,rm_hit
Main,1,49,COB,CORN,Related,1091,1494,111,211,201,587.6,rm_hit
Main,1,50,CLEVER,EAR,Unrelated,988,1593,121,221,201,665.2,rm_hit
Main,1,51,SLIP,NO,Unrelated,909,1502,121,221,201,765.5,rm_hit
Main,1,52,HALT,STOP,Related,1096,1412,111,211,201,550.5,rm_hit
Main,1,53,CHEDDAR,CHEESE,Related,973,1452,111,211,201,711.5,rm_hit
Main,1,54,WEARY,STAY,Unrelated,929,1519,121,221,201,681.1,rm_hit
Main,1,55,TOAD,FROG,Related,990,1449,111,211,201,541.4,rm_hit
Main,1,56,BRAWL,FIGHT,Related,1031,1581,111,211,201,467,rm_hit
Main,1,57,DIAMOND,RIGHT,Unrelated,939,1472,121,221,201,695.3,rm_hit
Main,1,58,DILEMMA,THIRST,Unrelated,1007,1554,121,221,201,804.3,rm_hit
Main,1,59,SPLASH,HER,Unrelated,1090,1576,121,221,201,843.3,rm_hit
Main,1,60,DENIM,JEANS,Related,1098,1409,111,211,201,585,rm_hit
Main,2,61,CROCODILE,ON,Unrelated,1094,1576,122,222,201,688.2,rm_hit
Main,2,62,BOX,PANTS,Unrelated,986,1491,122,222,201,794.5,rm_hit
Main,2,63,MARROW,BONE,Related,973,1594,112,212,201,560.1,rm_hit
Main,2,64,SALTINE,CRACKER,Related,993,1462,112,212,201,561.2,rm_hit
Main,2,65,PRIM,HIGH,Unrelated,1098,1505,122,222,201,579.5,rm_hit
Main,2,66,CINEMA,MOVIE,Related,963,1567,112,212,201,577.1,rm_hit
Main,2,67,BROTHER,SISTER,Related,1021,1573,112,212,201,1074.8,rm_hit
Main,2,68,STING,SHE,Unrelated,935,1430,122,222,201,823.1,rm_hit
Main,2,69,MIGRAINE,HEADACHE,Related,1016,1452,112,212,201,582,rm_hit
Main,2,70,BROOM,SWEAT,Unrelated,1093,1488,122,222,201,769,rm_hit
Main,2,71,IMMEDIATE,FIGHT,Unrelated,943,1409,122,222,201,816.7,rm_hit
Main,2,72,SHOVE,PUSH,Related,1094,1477,112,212,201,557,rm_hit
Main,2,73,ONCE,FISH,Unrelated,968,1405,122,222,201,659.9,rm_hit
Main,2,74,YOLK,EGG,Related,1030,1527,112,212,201,507.5,rm_hit
Main,2,75,SHINGLE,CHAIR,Unrelated,1004,1505,122,222,201,919.2,rm_hit
Main,2,76,UNSOLVED,AFTER,Unrelated,965,1491,122,222,201,724.8,rm_hit
Main,2,77,PEANUT,RUN,Unrelated,937,1408,122,222,201,940.4,rm_hit
Main,2,78,HINGE,CHEESE,Unrelated,922,1515,122,222,201,816,rm_hit
Main,2,79,WALLET,STOP,Unrelated,1095,1547,122,222,201,760.4,rm_hit
Main,2,80,DAGGER,JEANS,Unrelated,1038,1419,122,222,201,698,rm_hit
Main,2,81,HONK,PUZZLE,Unrelated,903,1540,122,222,201,715,rm_hit
Main,2,82,LIBRARY,BOOK,Related,1071,1442,112,212,201,747.3,rm_hit
Main,2,83,COMPREHEND,UNDERSTAND,Related,1019,1422,112,212,201,625.6,rm_hit
Main,2,84,WARDROBE,CLOTHES,Related,951,1412,112,212,201,699.2,rm_hit
Main,2,85,DIME,PICKLE,Unrelated,1074,1541,122,222,201,776.2,rm_hit
Main,2,86,SOCK,FLOWERS,Unrelated,1031,1526,122,222,201,857.8,rm_hit
Main,2,87,UP,DOWN,Related,1062,1451,112,212,201,594.9,rm_hit
Main,2,88,HIM,HER,Related,1072,1418,112,212,201,703.1,rm_hit
Main,2,89,MARGARINE,BUTTER,Related,924,1565,112,212,201,618.1,rm_hit
Main,2,90,ANATOMY,HATE,Unrelated,1009,1537,122,222,201,811.7,rm_hit
Main,2,91,ESCARGOT,TIRED,Unrelated,905,1596,122,222,201,747.3,rm_hit
Main,2,92,FIB,LIE,Related,933,1536,112,212,201,543.1,rm_hit
Main,2,93,MOM,DAD,Related,1039,1598,112,212,201,521.4,rm_hit
Main,2,94,SWIFT,TEST,Unrelated,1052,1541,122,222,201,680.3,rm_hit
Main,2,95,HAPPY,CORN,Unrelated,1044,1509,122,222,201,721.3,rm_hit
Main,2,96,BRIDE,GROOM,Related,932,1530,112,212,201,776.3,rm_hit
Main,2,97,CRIB,BABY,Related,1049,1579,112,212,201,658.1,rm_hit
Main,2,98,HAMMER,NAIL,Related,970,1562,112,212,201,476.9,rm_hit
Main,2,99,NAP,SLEEP,Related,1055,1492,112,212,201,461.3,rm_hit
Main,2,100,HUSBAND,WIFE,Related,974,1436,112,212,201,498.9,rm_hit
Main,2,101,PROFIT,UNCLE,Unrelated,949,1597,122,222,201,647.4,rm_hit
Main,2,102,FROSTING,PIZZA,Unrelated,950,1530,122,222,201,794.4,rm_hit
Main,2,103,BEETLE,FROG,Unrelated,999,1585,122,222,201,734,rm_hit
Main,2,104,QUIVER,DUCK,Unrelated,910,1519,122,222,201,899,rm_hit
Main,2,105,PARROT,DRAW,Unrelated,1091,1550,122,222,201,779.3,rm_hit
Main,2,106,WICK,CANDLE,Related,1006,1537,112,212,201,693.6,rm_hit
Main,2,107,EMPLOYMENT,CAT,Unrelated,935,1570,122,222,201,859.9,rm_hit
Main,2,108,REMAIN,STAY,Related,957,1553,112,212,201,863.6,rm_hit
Main,2,109,DESIRE,DOCTOR,Unrelated,925,1451,122,222,201,773.2,rm_hit
Main,2,110,CRACKLE,TREE,Unrelated,950,1497,122,222,201,1318.3,rm_hit
Main,2,111,SOBER,FUNNY,Unrelated,1029,1413,122,222,201,1265.9,rm_hit
Main,2,112,LOBE,EAR,Related,1095,1466,112,212,201,566.1,rm_hit
Main,2,113,FLIPPER,DOLPHIN,Related,1046,1420,112,212,201,642.5,rm_hit
Main,2,114,LEFT,RIGHT,Related,1022,1422,112,212,201,650.2,rm_hit
Main,2,115,GLANCE,END,Unrelated,1074,1592,122,222,201,710.5,rm_hit
Main,2,116,QUENCH,THIRST,Related,1076,1555,112,212,201,564.2,rm_hit
Main,2,117,IN,OUT,Related,1074,1508,112,212,201,619.1,rm_hit
Main,2,118,TARDY,LATE,Related,980,1497,112,212,201,552.1,rm_hit
Main,2,119,CASH,MONEY,Related,985,1414,112,212,201,557.7,rm_hit
Main,2,120,YES,NO,Related,1095,1556,112,212,201,338,rm_hit
