BlockName,ListNumber,TrialNumber,PrimeCaption,TargetCaption,Condition,ISIDuration,ITIDuration,PrimePortCode,TargetPortCode,Response,RT,Accuracy
Main,1,1,CHAPTER,LIE,Unrelated,993,1548,121,221,201,1035.1,rm_hit
Main,1,2,BEFORE,AFTER,Related,918,1545,111,211,201,625.4,rm_hit
Main,1,3,HE,SHE,Related,1093,1501,111,211,201,880.4,rm_hit
Main,1,4,ROAR,SISTER,Unrelated,1064,1600,121,221,201,666.7,rm_hit
Main,1,5,NOVEL,NAIL,Unrelated,1031,1565,121,221,201,946.4,rm_hit
Main,1,6,TUNA,FISH,Related,1026,1521,111,211,201,515.4,rm_hit
Main,1,7,CLIMBER,CLOTHES,Unrelated,956,1530,121,221,201,993.7,rm_hit
Main,1,8,JIGSAW,PUZZLE,Related,1098,1443,111,211,201,609.4,rm_hit
Main,1,9,SPLASH,HER,Unrelated,1020,1594,121,221,201,631.7,rm_hit
Main,1,10,TOAD,FROG,Related,955,1409,111,211,201,586.7,rm_hit
Main,1,11,EVEN,CANDLE,Unrelated,1028,1593,121,221,201,601.7,rm_hit
Main,1,12,DIAMOND,RIGHT,Unrelated,994,1589,121,221,201,634.7,rm_hit
Main,1,13,OFF,ON,Related,918,1442,111,211,201,495,rm_hit
Main,1,14,OAK,TREE,Related,1057,1421,111,211,201,547.3,rm_hit
Main,1,15,DESPISE,HATE,Related,1021,1461,111,211,201,562.9,rm_hit
Main,1,16,PHYSICIAN,DOCTOR,Related,1072,1496,111,211,201,622.5,rm_hit
Main,1,17,WRENCH,BABY,Unrelated,958,1576,121,221,201,596.8,rm_hit
Main,1,18,BAIT,LATE,Unrelated,933,1487,121,221,201,969.3,rm_hit
Main,1,19,AUNT,UNCLE,Related,974,1451,111,211,201,727.5,rm_hit
Main,1,20,RODENT,BONE,Unrelated,1077,1467,121,221,201,587.1,rm_hit
Main,1,21,RAYS,BUTTER,Unrelated,1066,1485,121,221,201,605.1,rm_hit
Main,1,22,PLANET,MOVIE,Unrelated,997,1471,121,221,201,674.6,rm_hit
Main,1,23,COB,CORN,Related,1046,1515,111,211,201,662.9,rm_hit
Main,1,24,JOG,RUN,Related,903,1502,111,211,201,535.2,rm_hit
Main,1,25,FOLLOW,PUSH,Unrelated,919,1591,121,221,201,879.6,rm_hit
Main,1,26,DEPART,CRACKER,Unrelated,1069,1570,121,221,201,1037.9,rm_hit
Main,1,27,PEPPERONI,PIZZA,Related,901,1497,111,211,201,636.1,rm_hit
Main,1,28,EXHAUSTED,TIRED,Related,1048,1409,111,211,201,599.1,rm_hit
Main,1,29,TOSS,UNDERSTAND,Unrelated,1014,1526,121,221,201,606.7,rm_hit
Main,1,30,BREEZE,SLEEP,Unrelated,974,1556,121,221,201,859.2,rm_hit
Main,1,31,DUSK,HEADACHE,Unrelated,939,1457,121,221,201,624,rm_hit
Main,1,32,LARGE,BOOK,Unrelated,907,1509,121,221,201,849.6,rm_hit
Main,1,33,SLIP,NO,Unrelated,978,1593,121,221,201,702.6,rm_hit
Main,1,34,PAIL,DOWN,Unrelated,933,1457,121,221,201,890.2,rm_hit
Main,1,35,TABLE,CHAIR,Related,919,1597,111,211,201,867.8,rm_hit
Main,1,36,DILEMMA,THIRST,Unrelated,1099,1407,121,221,201,920.9,rm_hit
Main,1,37,TROUSERS,PANTS,Related,1009,1563,111,211,201,592.5,rm_hit
Main,1,38,CONSTRUCT,DOLPHIN,Unrelated,918,1456,121,221,201,646.1,rm_hit
Main,1,39,DENIM,JEANS,Related,1023,1596,111,211,201,635.1,rm_hit
Main,1,40,WEARY,STAY,Unrelated,1074,1541,121,221,201,864.8,rm_hit
Main,1,41,CHEDDAR,CHEESE,Related,1043,1569,111,211,201,602.9,rm_hit
Main,1,42,SOBER,EGG,Unrelated,1030,1445,121,221,201,628,rm_hit
Main,1,43,CUP,OUT,Unrelated,923,1545,121,221,201,685.6,rm_hit
Main,1,44,HALT,STOP,Related,1095,1520,111,211,201,820.7,rm_hit
Main,1,45,BOUQUET,FLOWERS,Related,975,1500,111,211,201,585.6,rm_hit
Main,1,46,STONE,WIFE,Unrelated,969,1506,121,221,201,575.9,rm_hit
Main,1,47,SKETCH,DRAW,Related,1098,1412,111,211,202,904.2,rm_incorrect
Main,1,48,FLUNK,DAD,Unrelated,912,1485,121,221,201,715.8,rm_hit
Main,1,49,MEN,MONEY,Unrelated,1034,1494,121,221,201,1040.2,rm_hit
Main,1,50,CLEVER,EAR,Unrelated,1044,1402,121,221,201,739.1,rm_hit
Main,1,51,LOW,HIGH,Related,1001,1455,111,211,201,724,rm_hit
Main,1,52,QUIZ,TEST,Related,1004,1432,111,211,201,531,rm_hit
Main,1,53,PERSPIRE,SWEAT,Related,975,1446,111,211,201,643.2,rm_hit
Main,1,54,BEGINNING,END,Related,981,1451,111,211,201,658.9,rm_hit
Main,1,55,HILARIOUS,FUNNY,Related,1042,1421,111,211,201,535.8,rm_hit
Main,1,56,BRAWL,FIGHT,Related,913,1457,111,211,201,379.4,rm_hit
Main,1,57,SCENT,GROOM,Unrelated,1074,1527,121,221,202,726.4,rm_incorrect
Main,1,58,KITTEN,CAT,Related,1063,1425,111,211,201,527.4,rm_hit
Main,1,59,QUACK,DUCK,Related,1038,1561,111,211,201,653.7,rm_hit
Main,1,60,DILL,PICKLE,Related,1064,1438,111,211,201,421.4,rm_hit
Main,2,61,BRIDE,GROOM,Related,1010,1415,112,212,201,512.8,rm_hit
Main,2,62,SALTINE,CRACKER,Related,1052,1401,112,212,201,415.1,rm_hit
Main,2,63,WICK,CANDLE,Related,1043,1599,112,212,201,877.9,rm_hit
Main,2,64,TARDY,LATE,Related,921,1537,112,212,201,738.3,rm_hit
Main,2,65,HONK,PUZZLE,Unrelated,1058,1465,122,222,201,699.3,rm_hit
Main,2,66,LOBE,EAR,Related,1020,1452,112,212,201,441,rm_hit
Main,2,67,CROCODILE,ON,Unrelated,949,1458,122,222,201,745.8,rm_hit
Main,2,68,WALLET,STOP,Unrelated,1030,1418,122,222,201,990.9,rm_hit
Main,2,69,LIBRARY,BOOK,Related,1099,1510,112,212,201,795.1,rm_hit
Main,2,70,PEANUT,RUN,Unrelated,992,1536,122,222,201,671.4,rm_hit
Main,2,71,YOLK,EGG,Related,1024,1473,112,212,201,857.8,rm_hit
Main,2,72,REMAIN,STAY,Related,1062,1500,112,212,201,700.8,rm_hit
Main,2,73,BROTHER,SISTER,Related,1089,1514,112,212,201,742.4,rm_hit
Main,2,74,HUSBAND,WIFE,Related,981,1568,112,212,201,419.4,rm_hit
Main,2,75,FROSTING,PIZZA,Unrelated,902,1525,122,222,201,777.7,rm_hit
Main,2,76,MOM,DAD,Related,1095,1404,112,212,201,505.4,rm_hit
Main,2,77,ONCE,FISH,Unrelated,1070,1546,122,222,201,639.7,rm_hit
Main,2,78,SOBER,FUNNY,Unrelated,1017,1599,122,222,201,570,rm_hit
Main,2,79,CASH,MONEY,Related,919,1497,112,212,201,758.4,rm_hit
Main,2,80,QUENCH,THIRST,Related,920,1500,112,212,201,598.6,rm_hit
Main,2,81,LEFT,RIGHT,Related,908,1504,112,212,201,571.9,rm_hit
Main,2,82,FIB,LIE,Related,991,1534,112,212,201,688.9,rm_hit
Main,2,83,COMPREHEND,UNDERSTAND,Related,1052,1592,112,212,201,546.5,rm_hit
Main,2,84,IMMEDIATE,FIGHT,Unrelated,937,1414,122,222,201,750.2,rm_hit
Main,2,85,CRIB,BABY,Related,943,1424,112,212,201,584.4,rm_hit
Main,2,86,MIGRAINE,HEADACHE,Related,1026,1479,112,212,201,590.7,rm_hit
Main,2,87,ANATOMY,HATE,Unrelated,918,1542,122,222,201,935.7,rm_hit
Main,2,88,WARDROBE,CLOTHES,Related,1083,1463,112,212,201,591.5,rm_hit
Main,2,89,SHINGLE,CHAIR,Unrelated,1001,1418,122,222,201,741.6,rm_hit
Main,2,90,QUIVER,DUCK,Unrelated,960,1554,122,222,201,679.2,rm_hit
Main,2,91,BEETLE,FROG,Unrelated,903,1521,122,222,201,1110.2,rm_hit
Main,2,92,DAGGER,JEANS,Unrelated,1081,1454,122,222,201,631.2,rm_hit
Main,2,93,BOX,PANTS,Unrelated,972,1528,122,222,201,1031.5,rm_hit
Main,2,94,CINEMA,MOVIE,Related,1097,1517,112,212,201,631.2,rm_hit
Main,2,95,GLANCE,END,Unrelated,989,1429,122,222,201,836.1,rm_hit
Main,2,96,HAMMER,NAIL,Related,1020,1462,112,212,202,595.2,rm_incorrect
Main,2,97,UNSOLVED,AFTER,Unrelated,1017,1459,122,222,201,944.7,rm_hit
Main,2,98,YES,NO,Related,1089,1589,112,212,201,539.7,rm_hit
Main,2,99,PROFIT,UNCLE,Unrelated,1030,1570,122,222,201,883.5,rm_hit
Main,2,100,SWIFT,TEST,Unrelated,1016,1558,122,222,201,693.1,rm_hit
Main,2,101,SHOVE,PUSH,Related,942,1454,112,212,201,866.9,rm_hit
Main,2,102,SOCK,FLOWERS,Unrelated,963,1496,122,222,201,563.2,rm_hit
Main,2,103,HAPPY,CORN,Unrelated,1055,1510,122,222,201,670.2,rm_hit
Main,2,104,PRIM,HIGH,Unrelated,952,1491,122,222,201,756.4,rm_hit
Main,2,105,HIM,HER,Related,904,1428,112,212,201,557.5,rm_hit
Main,2,106,FLIPPER,DOLPHIN,Related,1094,1555,112,212,201,657,rm_hit
Main,2,107,IN,OUT,Related,959,1520,112,212,201,605.3,rm_hit
Main,2,108,NAP,SLEEP,Related,1050,1513,112,212,201,567.7,rm_hit
Main,2,109,HINGE,CHEESE,Unrelated,1079,1496,122,222,201,728.7,rm_hit
Main,2,110,EMPLOYMENT,CAT,Unrelated,979,1517,122,222,201,566.3,rm_hit
Main,2,111,PARROT,DRAW,Unrelated,938,1436,122,222,201,661.3,rm_hit
Main,2,112,MARGARINE,BUTTER,Related,991,1428,112,212,202,564.9,rm_incorrect
Main,2,113,ESCARGOT,TIRED,Unrelated,997,1536,122,222,201,516.5,rm_hit
Main,2,114,BROOM,SWEAT,Unrelated,945,1557,122,222,201,602.1,rm_hit
Main,2,115,STING,SHE,Unrelated,1035,1452,122,222,201,603.1,rm_hit
Main,2,116,MARROW,BONE,Related,1066,1556,112,212,202,807.5,rm_incorrect
Main,2,117,CRACKLE,TREE,Unrelated,984,1437,122,222,201,882.5,rm_hit
Main,2,118,DIME,PICKLE,Unrelated,1093,1556,122,222,201,542.1,rm_hit
Main,2,119,UP,DOWN,Related,902,1403,112,212,201,548.4,rm_hit
Main,2,120,DESIRE,DOCTOR,Unrelated,1025,1466,122,222,201,604,rm_hit
