BlockName,ListNumber,TrialNumber,PrimeCaption,TargetCaption,Condition,ISIDuration,ITIDuration,PrimePortCode,TargetPortCode,Response,RT,Accuracy
Main,1,1,BRAWL,FIGHT,Related,1064,1460,111,211,201,432.5,rm_hit
Main,1,2,TABLE,CHAIR,Related,967,1586,111,211,201,368.2,rm_hit
Main,1,3,DIAMOND,RIGHT,Unrelated,1073,1465,121,221,201,502.5,rm_hit
Main,1,4,WEARY,STAY,Unrelated,997,1489,121,221,201,404.8,rm_hit
Main,1,5,BEFORE,AFTER,Related,1007,1559,111,211,201,273.1,rm_hit
Main,1,6,MEN,MONEY,Unrelated,1001,1482,121,221,201,475.4,rm_hit
Main,1,7,CONSTRUCT,DOLPHIN,Unrelated,1053,1434,121,221,201,447,rm_hit
Main,1,8,NOVEL,NAIL,Unrelated,1030,1469,121,221,201,589.3,rm_hit
Main,1,9,DILL,PICKLE,Related,930,1419,111,211,201,534.3,rm_hit
Main,1,10,PAIL,DOWN,Unrelated,1016,1406,121,221,201,517.9,rm_hit
Main,1,11,RODENT,BONE,Unrelated,998,1454,121,221,201,486.1,rm_hit
Main,1,12,HALT,STOP,Related,1078,1432,111,211,201,617.8,rm_hit
Main,1,13,COB,CORN,Related,1015,1569,111,211,201,536.9,rm_hit
Main,1,14,BREEZE,SLEEP,Unrelated,953,1483,121,221,201,701,rm_hit
Main,1,15,PLANET,MOVIE,Unrelated,999,1494,121,221,201,482.8,rm_hit
Main,1,16,SKETCH,DRAW,Related,1040,1422,111,211,201,309.7,rm_hit
Main,1,17,HILARIOUS,FUNNY,Related,1061,1497,111,211,201,290.7,rm_hit
Main,1,18,OAK,TREE,Related,967,1586,111,211,201,328.9,rm_hit
Main,1,19,EXHAUSTED,TIRED,Related,929,1473,111,211,201,509.3,rm_hit
Main,1,20,DUSK,HEADACHE,Unrelated,988,1432,121,221,201,451.6,rm_hit
Main,1,21,TOSS,UNDERSTAND,Unrelated,1073,1517,121,221,201,426,rm_hit
Main,1,22,CUP,OUT,Unrelated,1066,1578,121,221,201,539.7,rm_hit
Main,1,23,FOLLOW,PUSH,Unrelated,1054,1590,121,221,201,651.5,rm_hit
Main,1,24,OFF,ON,Related,1000,1436,111,211,201,276.4,rm_hit
Main,1,25,CHAPTER,LIE,Unrelated,917,1422,121,221,201,591.3,rm_hit
Main,1,26,JIGSAW,PUZZLE,Related,998,1444,111,211,201,326.9,rm_hit
Main,1,27,QUIZ,TEST,Related,1082,1483,111,211,201,282.6,rm_hit
Main,1,28,EVEN,CANDLE,Unrelated,1099,1590,121,221,201,548.2,rm_hit
Main,1,29,CLIMBER,CLOTHES,Unrelated,1004,1443,121,221,201,493.3,rm_hit
Main,1,30,PERSPIRE,SWEAT,Related,1018,1569,111,211,201,347.6,rm_hit
Main,1,31,LOW,HIGH,Related,1039,1489,111,211,201,300.6,rm_hit
Main,1,32,TOAD,FROG,Related,990,1481,111,211,201,505.5,rm_hit
Main,1,33,DILEMMA,THIRST,Unrelated,913,1500,121,221,201,426.5,rm_hit
Main,1,34,HE,SHE,Related,924,1600,111,211,201,346.2,rm_hit
Main,1,35,KITTEN,CAT,Related,1015,1546,111,211,201,442.5,rm_hit
Main,1,36,JOG,RUN,Related,1098,1402,111,211,201,441.4,rm_hit
Main,1,37,CHEDDAR,CHEESE,Related,939,1555,111,211,201,389.2,rm_hit
Main,1,38,BEGINNING,END,Related,990,1478,111,211,201,311.5,rm_hit
Main,1,39,WRENCH,BABY,Unrelated,1080,1554,121,221,201,393.8,rm_hit
Main,1,40,SOBER,EGG,Unrelated,923,1501,121,221,201,519.4,rm_hit
Main,1,41,CLEVER,EAR,Unrelated,1099,1427,121,221,201,434.6,rm_hit
Main,1,42,SPLASH,HER,Unrelated,1059,1406,121,221,201,639.6,rm_hit
Main,1,43,DESPISE,HATE,Related,1073,1439,111,211,201,300.6,rm_hit
Main,1,44,TUNA,FISH,Related,906,1489,111,211,201,351.5,rm_hit
Main,1,45,DEPART,CRACKER,Unrelated,930,1504,121,221,201,511.1,rm_hit
Main,1,46,QUACK,DUCK,Related,922,1545,111,211,201,487.3,rm_hit
Main,1,47,SCENT,GROOM,Unrelated,1009,1525,121,221,201,553.6,rm_hit
Main,1,48,DENIM,JEANS,Related,927,1415,111,211,201,496,rm_hit
Main,1,49,FLUNK,DAD,Unrelated,1057,1463,121,221,201,429.6,rm_hit
Main,1,50,AUNT,UNCLE,Related,958,1525,111,211,202,541.2,rm_incorrect
Main,1,51,PEPPERONI,PIZZA,Related,946,1477,111,211,201,402.8,rm_hit
Main,1,52,STONE,WIFE,Unrelated,1038,1482,121,221,201,543.2,rm_hit
Main,1,53,LARGE,BOOK,Unrelated,1088,1532,121,221,201,465.6,rm_hit
Main,1,54,SLIP,NO,Unrelated,1097,1475,121,221,201,561.2,rm_hit
Main,1,55,PHYSICIAN,DOCTOR,Related,965,1593,111,211,201,568.2,rm_hit
Main,1,56,ROAR,SISTER,Unrelated,1081,1405,121,221,201,454,rm_hit
Main,1,57,RAYS,BUTTER,Unrelated,984,1579,121,221,201,374.8,rm_hit
Main,1,58,BOUQUET,FLOWERS,Related,919,1591,111,211,201,291.8,rm_hit
Main,1,59,BAIT,LATE,Unrelated,926,1435,121,221,201,479.4,rm_hit
Main,1,60,TROUSERS,PANTS,Related,1030,1447,111,211,201,381.7,rm_hit
Main,2,61,UP,DOWN,Related,1035,1432,112,212,201,320.5,rm_hit
Main,2,62,LOBE,EAR,Related,1059,1548,112,212,201,341.5,rm_hit
Main,2,63,LIBRARY,BOOK,Related,1038,1552,112,212,201,359.1,rm_hit
Main,2,64,STING,SHE,Unrelated,927,1413,122,222,201,364.8,rm_hit
Main,2,65,SOCK,FLOWERS,Unrelated,946,1434,122,222,202,551.1,rm_incorrect
Main,2,66,CASH,MONEY,Related,1078,1543,112,212,201,379.3,rm_hit
Main,2,67,WICK,CANDLE,Related,1002,1565,112,212,201,326.3,rm_hit
Main,2,68,IN,OUT,Related,1033,1412,112,212,201,351.4,rm_hit
Main,2,69,COMPREHEND,UNDERSTAND,Related,912,1589,112,212,201,418.9,rm_hit
Main,2,70,MOM,DAD,Related,1022,1504,112,212,201,411.3,rm_hit
Main,2,71,HIM,HER,Related,1058,1586,112,212,201,277.6,rm_hit
Main,2,72,YOLK,EGG,Related,1067,1415,112,212,201,348.8,rm_hit
Main,2,73,CROCODILE,ON,Unrelated,941,1554,122,222,201,806.9,rm_hit
Main,2,74,CRACKLE,TREE,Unrelated,935,1551,122,222,201,500.5,rm_hit
Main,2,75,SOBER,FUNNY,Unrelated,983,1466,122,222,201,448.1,rm_hit
Main,2,76,HAMMER,NAIL,Related,1012,1460,112,212,201,725.8,rm_hit
Main,2,77,YES,NO,Related,1099,1527,112,212,201,408.1,rm_hit
Main,2,78,HUSBAND,WIFE,Related,1089,1553,112,212,201,328.5,rm_hit
Main,2,79,GLANCE,END,Unrelated,1030,1543,122,222,201,386.2,rm_hit
Main,2,80,LEFT,RIGHT,Related,1033,1554,112,212,201,227.8,rm_hit
Main,2,81,DIME,PICKLE,Unrelated,938,1410,122,222,201,563.8,rm_hit
Main,2,82,BOX,PANTS,Unrelated,913,1417,122,222,201,383.5,rm_hit
Main,2,83,HAPPY,CORN,Unrelated,946,1494,122,222,201,385.6,rm_hit
Main,2,84,IMMEDIATE,FIGHT,Unrelated,950,1515,122,222,201,352.6,rm_hit
Main,2,85,FIB,LIE,Related,984,1499,112,212,201,629.6,rm_hit
Main,2,86,UNSOLVED,AFTER,Unrelated,962,1456,122,222,201,468,rm_hit
Main,2,87,HINGE,CHEESE,Unrelated,1029,1489,122,222,201,432.8,rm_hit
Main,2,88,DESIRE,DOCTOR,Unrelated,1000,1518,122,222,201,437.8,rm_hit
Main,2,89,CRIB,BABY,Related,910,1531,112,212,201,533.4,rm_hit
Main,2,90,EMPLOYMENT,CAT,Unrelated,923,1404,122,222,201,435.7,rm_hit
Main,2,91,ONCE,FISH,Unrelated,991,1489,122,222,201,484.7,rm_hit
Main,2,92,QUENCH,THIRST,Related,1035,1564,112,212,201,504.2,rm_hit
Main,2,93,PARROT,DRAW,Unrelated,1074,1539,122,222,201,455.3,rm_hit
Main,2,94,PROFIT,UNCLE,Unrelated,981,1456,122,222,201,395.1,rm_hit
Main,2,95,REMAIN,STAY,Related,944,1440,112,212,201,595.3,rm_hit
Main,2,96,ANATOMY,HATE,Unrelated,1006,1535,122,222,201,409.6,rm_hit
Main,2,97,ESCARGOT,TIRED,Unrelated,1070,1484,122,222,201,330.7,rm_hit
Main,2,98,FLIPPER,DOLPHIN,Related,965,1488,112,212,201,553.5,rm_hit
Main,2,99,NAP,SLEEP,Related,910,1412,112,212,201,602.4,rm_hit
Main,2,100,FROSTING,PIZZA,Unrelated,964,1509,122,222,201,556.1,rm_hit
Main,2,101,HONK,PUZZLE,Unrelated,1006,1558,122,222,201,399.1,rm_hit
Main,2,102,TARDY,LATE,Related,1036,1571,112,212,201,352.1,rm_hit
Main,2,103,SHINGLE,CHAIR,Unrelated,1005,1491,122,222,201,434.5,rm_hit
Main,2,104,WARDROBE,CLOTHES,Related,1014,1418,112,212,201,486.8,rm_hit
Main,2,105,SALTINE,CRACKER,Related,1017,1477,112,212,201,550.3,rm_hit
Main,2,106,BROTHER,SISTER,Related,923,1414,112,212,201,326.6,rm_hit
Main,2,107,BROOM,SWEAT,Unrelated,1094,1574,122,222,201,666.9,rm_hit
Main,2,108,CINEMA,MOVIE,Related,1060,1445,112,212,201,329.9,rm_hit
Main,2,109,SWIFT,TEST,Unrelated,1002,1445,122,222,201,520.9,rm_hit
Main,2,110,BEETLE,FROG,Unrelated,961,1557,122,222,201,569.3,rm_hit
Main,2,111,MARGARINE,BUTTER,Related,1010,1493,112,212,201,442.8,rm_hit
Main,2,112,SHOVE,PUSH,Related,1090,1561,112,212,201,419.8,rm_hit
Main,2,113,QUIVER,DUCK,Unrelated,985,1511,122,222,201,382.9,rm_hit
Main,2,114,DAGGER,JEANS,Unrelated,1040,1577,122,222,201,481.3,rm_hit
Main,2,115,BRIDE,GROOM,Related,925,1509,112,212,201,333.6,rm_hit
Main,2,116,WALLET,STOP,Unrelated,904,1587,122,222,201,381.7,rm_hit
Main,2,117,PEANUT,RUN,Unrelated,941,1518,122,222,201,385.4,rm_hit
Main,2,118,PRIM,HIGH,Unrelated,1016,1415,122,222,201,509.1,rm_hit
Main,2,119,MARROW,BONE,Related,1085,1525,112,212,201,546,rm_hit
Main,2,120,MIGRAINE,HEADACHE,Related,1086,1412,112,212,201,362.3,rm_hit
